[{"rt":965,"stimulus":"<p>Hello unknown</p>","response":0,"trial_type":"html-button-response","trial_index":0,"time_elapsed":966,"internal_node_id":"0.0-0.0"},{"success":true,"rt":512,"trial_type":"fullscreen","trial_index":1,"time_elapsed":2492,"internal_node_id":"0.0-1.0"},{"rt":433,"stimulus":"You are going to start a new block with images of vegetables","response":0,"trial_type":"html-button-response","trial_index":2,"time_elapsed":2927,"internal_node_id":"0.0-2.0-0.0"},{"rt":null,"stimulus":"<p style='font-size: 3rem;'>+</p>","response":null,"trial_type":"html-keyboard-response","trial_index":3,"time_elapsed":3440,"internal_node_id":"0.0-2.0-1.0-0.0"},{"rt":926,"stimulus":"./img/vegetables/carrot.jpg","response":1,"trial_type":"image-button-response","trial_index":4,"time_elapsed":4367,"internal_node_id":"0.0-2.0-1.0-1.0","accuracy":0},{"rt":null,"stimulus":"img/thumbsDown.png","response":null,"trial_type":"image-keyboard-response","trial_index":5,"time_elapsed":4879,"internal_node_id":"0.0-2.0-1.0-2.0"},{"rt":664,"stimulus":"You are going to start a new block with images of desserts","response":0,"trial_type":"html-button-response","trial_index":6,"time_elapsed":5544,"internal_node_id":"0.0-2.1-0.1"},{"rt":null,"stimulus":"<p style='font-size: 3rem;'>+</p>","response":null,"trial_type":"html-keyboard-response","trial_index":7,"time_elapsed":6046,"internal_node_id":"0.0-2.1-1.1-0.1"},{"rt":783,"stimulus":"./img/desserts/cake.jpg","response":0,"trial_type":"image-button-response","trial_index":8,"time_elapsed":6830,"internal_node_id":"0.0-2.1-1.1-1.1","accuracy":1},{"rt":null,"stimulus":"img/thumbsUp.png","response":null,"trial_type":"image-keyboard-response","trial_index":9,"time_elapsed":7337,"internal_node_id":"0.0-2.1-1.1-2.1"},{"rt":null,"stimulus":"<p style='font-size: 3rem;'>+</p>","response":null,"trial_type":"html-keyboard-response","trial_index":10,"time_elapsed":7847,"internal_node_id":"0.0-2.1-1.2-0.2"},{"rt":767,"stimulus":"./img/desserts/milkshake.jpg","response":1,"trial_type":"image-button-response","trial_index":11,"time_elapsed":8614,"internal_node_id":"0.0-2.1-1.2-1.2","accuracy":1},{"rt":null,"stimulus":"img/thumbsUp.png","response":null,"trial_type":"image-keyboard-response","trial_index":12,"time_elapsed":9122,"internal_node_id":"0.0-2.1-1.2-2.2"},{"rt":null,"stimulus":"<p style='font-size: 3rem;'>+</p>","response":null,"trial_type":"html-keyboard-response","trial_index":13,"time_elapsed":9681,"internal_node_id":"0.0-2.1-1.3-0.3"},{"rt":612,"stimulus":"./img/desserts/ice-cream_cone.jpg","response":0,"trial_type":"image-button-response","trial_index":14,"time_elapsed":10294,"internal_node_id":"0.0-2.1-1.3-1.3","accuracy":0},{"rt":null,"stimulus":"img/thumbsDown.png","response":null,"trial_type":"image-keyboard-response","trial_index":15,"time_elapsed":10803,"internal_node_id":"0.0-2.1-1.3-2.3"},{"rt":964,"stimulus":"You are going to start a new block with images of fruits","response":0,"trial_type":"html-button-response","trial_index":16,"time_elapsed":11767,"internal_node_id":"0.0-2.2-0.2"},{"rt":null,"stimulus":"<p style='font-size: 3rem;'>+</p>","response":null,"trial_type":"html-keyboard-response","trial_index":17,"time_elapsed":12279,"internal_node_id":"0.0-2.2-1.4-0.4"},{"rt":847,"stimulus":"./img/fruits/grapefruit.jpg","response":0,"trial_type":"image-button-response","trial_index":18,"time_elapsed":13126,"internal_node_id":"0.0-2.2-1.4-1.4","accuracy":0},{"rt":null,"stimulus":"img/thumbsDown.png","response":null,"trial_type":"image-keyboard-response","trial_index":19,"time_elapsed":13628,"internal_node_id":"0.0-2.2-1.4-2.4"},{"rt":null,"stimulus":"<p style='font-size: 3rem;'>+</p>","response":null,"trial_type":"html-keyboard-response","trial_index":20,"time_elapsed":14138,"internal_node_id":"0.0-2.2-1.5-0.5"},{"rt":658,"stimulus":"./img/fruits/kiwi.jpg","response":0,"trial_type":"image-button-response","trial_index":21,"time_elapsed":14798,"internal_node_id":"0.0-2.2-1.5-1.5","accuracy":1},{"rt":null,"stimulus":"img/thumbsUp.png","response":null,"trial_type":"image-keyboard-response","trial_index":22,"time_elapsed":15338,"internal_node_id":"0.0-2.2-1.5-2.5"},{"rt":627,"stimulus":"<p>Thanks for participating</p>","response":0,"trial_type":"html-button-response","trial_index":23,"time_elapsed":15966,"internal_node_id":"0.0-3.0"},{"rt":3999,"response":{"Fruit":2,"Vegetables":2,"Meat":2},"question_order":[1,0,2],"trial_type":"survey-likert","trial_index":24,"time_elapsed":19967,"internal_node_id":"0.0-4.0"},{"success":true,"rt":null,"trial_type":"fullscreen","trial_index":25,"time_elapsed":20972,"internal_node_id":"0.0-5.0"},{"trials":[{"event":"fullscreenenter","trial":1,"time":1706},{"event":"fullscreenexit","trial":25,"time":20195}],"trial_tag":"interaction"},{"completedTask":"RLWM_expNOW","basename":"expNOW_unknownunknown","starting_time":"2023-11-21T09:18:12.251Z"}]