[{"rt":1705,"stimulus":"<p>Hello unknown</p>","response":0,"trial_type":"html-button-response","trial_index":0,"time_elapsed":1706,"internal_node_id":"0.0-0.0"},{"success":true,"timeout":false,"failed_images":[],"failed_audio":[],"failed_video":[],"trial_type":"preload","trial_index":1,"time_elapsed":1732,"internal_node_id":"0.0-1.0"},{"success":true,"rt":1301,"trial_type":"fullscreen","trial_index":2,"time_elapsed":4037,"internal_node_id":"0.0-2.0"},{"rt":1265,"stimulus":"You are going to start a new block with images of fruits","response":0,"trial_type":"html-button-response","trial_index":3,"time_elapsed":5304,"internal_node_id":"0.0-3.0-0.0"},{"rt":null,"stimulus":"<p style='font-size: 3rem;'>+</p>","response":null,"trial_type":"html-keyboard-response","trial_index":4,"time_elapsed":5813,"internal_node_id":"0.0-3.0-1.0-0.0"},{"rt":944,"stimulus":"./img/fruits/kiwi.jpg","response":0,"trial_type":"image-button-response","trial_index":5,"time_elapsed":6763,"internal_node_id":"0.0-3.0-1.0-1.0","accuracy":0},{"rt":null,"stimulus":"img/thumbsDown.png","response":null,"trial_type":"image-keyboard-response","trial_index":6,"time_elapsed":7268,"internal_node_id":"0.0-3.0-1.0-2.0"},{"rt":null,"stimulus":"<p style='font-size: 3rem;'>+</p>","response":null,"trial_type":"html-keyboard-response","trial_index":7,"time_elapsed":7782,"internal_node_id":"0.0-3.0-1.1-0.1"},{"rt":1128,"stimulus":"./img/fruits/banana.jpg","response":0,"trial_type":"image-button-response","trial_index":8,"time_elapsed":8915,"internal_node_id":"0.0-3.0-1.1-1.1","accuracy":1},{"rt":null,"stimulus":"img/thumbsUp.png","response":null,"trial_type":"image-keyboard-response","trial_index":9,"time_elapsed":9431,"internal_node_id":"0.0-3.0-1.1-2.1"},{"rt":1337,"stimulus":"You are going to start a new block with images of desserts","response":0,"trial_type":"html-button-response","trial_index":10,"time_elapsed":10769,"internal_node_id":"0.0-3.1-0.1"},{"rt":null,"stimulus":"<p style='font-size: 3rem;'>+</p>","response":null,"trial_type":"html-keyboard-response","trial_index":11,"time_elapsed":11279,"internal_node_id":"0.0-3.1-1.2-0.2"},{"rt":1103,"stimulus":"./img/desserts/milkshake.jpg","response":1,"trial_type":"image-button-response","trial_index":12,"time_elapsed":12384,"internal_node_id":"0.0-3.1-1.2-1.2","accuracy":0},{"rt":null,"stimulus":"img/thumbsDown.png","response":null,"trial_type":"image-keyboard-response","trial_index":13,"time_elapsed":12896,"internal_node_id":"0.0-3.1-1.2-2.2"},{"rt":null,"stimulus":"<p style='font-size: 3rem;'>+</p>","response":null,"trial_type":"html-keyboard-response","trial_index":14,"time_elapsed":13408,"internal_node_id":"0.0-3.1-1.3-0.3"},{"rt":1428,"stimulus":"./img/desserts/brownie.jpg","response":2,"trial_type":"image-button-response","trial_index":15,"time_elapsed":14841,"internal_node_id":"0.0-3.1-1.3-1.3","accuracy":0},{"rt":null,"stimulus":"img/thumbsDown.png","response":null,"trial_type":"image-keyboard-response","trial_index":16,"time_elapsed":15377,"internal_node_id":"0.0-3.1-1.3-2.3"},{"rt":null,"stimulus":"<p style='font-size: 3rem;'>+</p>","response":null,"trial_type":"html-keyboard-response","trial_index":17,"time_elapsed":15886,"internal_node_id":"0.0-3.1-1.4-0.4"},{"rt":840,"stimulus":"./img/desserts/dessert.jpg","response":2,"trial_type":"image-button-response","trial_index":18,"time_elapsed":16729,"internal_node_id":"0.0-3.1-1.4-1.4","accuracy":0},{"rt":null,"stimulus":"img/thumbsDown.png","response":null,"trial_type":"image-keyboard-response","trial_index":19,"time_elapsed":17237,"internal_node_id":"0.0-3.1-1.4-2.4"},{"rt":915,"stimulus":"You are going to start a new block with images of vegetables","response":0,"trial_type":"html-button-response","trial_index":20,"time_elapsed":18153,"internal_node_id":"0.0-3.2-0.2"},{"rt":null,"stimulus":"<p style='font-size: 3rem;'>+</p>","response":null,"trial_type":"html-keyboard-response","trial_index":21,"time_elapsed":18714,"internal_node_id":"0.0-3.2-1.5-0.5"},{"rt":802,"stimulus":"./img/vegetables/beet.jpg","response":1,"trial_type":"image-button-response","trial_index":22,"time_elapsed":19521,"internal_node_id":"0.0-3.2-1.5-1.5","accuracy":0},{"rt":null,"stimulus":"img/thumbsDown.png","response":null,"trial_type":"image-keyboard-response","trial_index":23,"time_elapsed":20035,"internal_node_id":"0.0-3.2-1.5-2.5"},{"rt":1012,"stimulus":"<p>Thanks for participating</p>","response":0,"trial_type":"html-button-response","trial_index":24,"time_elapsed":21048,"internal_node_id":"0.0-4.0"},{"rt":4544,"response":{"Vegetables":2,"Meat":2,"Fruit":2},"question_order":[0,2,1],"trial_type":"survey-likert","trial_index":25,"time_elapsed":25594,"internal_node_id":"0.0-5.0"},{"success":true,"rt":null,"trial_type":"fullscreen","trial_index":26,"time_elapsed":26601,"internal_node_id":"0.0-6.0"},{"trials":[{"event":"fullscreenenter","trial":2,"time":3255},{"event":"fullscreenexit","trial":26,"time":25810}],"trial_tag":"interaction"},{"completedTask":"RLWM_expNOW","basename":"expNOW_unknownunknown","starting_time":"2023-11-21T09:33:42.690Z"}]