[{"rt":709,"stimulus":"<p>Hello unknown</p>","response":0,"trial_type":"html-button-response","trial_index":0,"time_elapsed":710,"internal_node_id":"0.0-0.0"},{"success":true,"rt":480,"trial_type":"fullscreen","trial_index":1,"time_elapsed":2314,"internal_node_id":"0.0-1.0"},{"rt":458,"stimulus":"You are going to start a new block with images of vegetables","response":0,"trial_type":"html-button-response","trial_index":2,"time_elapsed":2773,"internal_node_id":"0.0-2.0-0.0"},{"rt":null,"stimulus":"<p style='font-size: 3rem;'>+</p>","response":null,"trial_type":"html-keyboard-response","trial_index":3,"time_elapsed":3280,"internal_node_id":"0.0-2.0-1.0-0.0"},{"rt":813,"stimulus":"./img/vegetables/eggplant.jpg","response":1,"trial_type":"image-button-response","trial_index":4,"time_elapsed":4094,"internal_node_id":"0.0-2.0-1.0-1.0","accuracy":0},{"rt":null,"stimulus":"img/thumbsDown.png","response":null,"trial_type":"image-keyboard-response","trial_index":5,"time_elapsed":4649,"internal_node_id":"0.0-2.0-1.0-2.0"},{"rt":1012,"stimulus":"You are going to start a new block with images of desserts","response":0,"trial_type":"html-button-response","trial_index":6,"time_elapsed":5662,"internal_node_id":"0.0-2.1-0.1"},{"rt":null,"stimulus":"<p style='font-size: 3rem;'>+</p>","response":null,"trial_type":"html-keyboard-response","trial_index":7,"time_elapsed":6204,"internal_node_id":"0.0-2.1-1.1-0.1"},{"rt":608,"stimulus":"./img/desserts/milkshake.jpg","response":0,"trial_type":"image-button-response","trial_index":8,"time_elapsed":6813,"internal_node_id":"0.0-2.1-1.1-1.1","accuracy":0},{"rt":null,"stimulus":"img/thumbsDown.png","response":null,"trial_type":"image-keyboard-response","trial_index":9,"time_elapsed":7388,"internal_node_id":"0.0-2.1-1.1-2.1"},{"rt":null,"stimulus":"<p style='font-size: 3rem;'>+</p>","response":null,"trial_type":"html-keyboard-response","trial_index":10,"time_elapsed":7899,"internal_node_id":"0.0-2.1-1.2-0.2"},{"rt":658,"stimulus":"./img/desserts/cake.jpg","response":1,"trial_type":"image-button-response","trial_index":11,"time_elapsed":8558,"internal_node_id":"0.0-2.1-1.2-1.2","accuracy":1},{"rt":null,"stimulus":"img/thumbsUp.png","response":null,"trial_type":"image-keyboard-response","trial_index":12,"time_elapsed":9063,"internal_node_id":"0.0-2.1-1.2-2.2"},{"rt":null,"stimulus":"<p style='font-size: 3rem;'>+</p>","response":null,"trial_type":"html-keyboard-response","trial_index":13,"time_elapsed":9577,"internal_node_id":"0.0-2.1-1.3-0.3"},{"rt":476,"stimulus":"./img/desserts/brownie.jpg","response":1,"trial_type":"image-button-response","trial_index":14,"time_elapsed":10055,"internal_node_id":"0.0-2.1-1.3-1.3","accuracy":0},{"rt":null,"stimulus":"img/thumbsDown.png","response":null,"trial_type":"image-keyboard-response","trial_index":15,"time_elapsed":10557,"internal_node_id":"0.0-2.1-1.3-2.3"},{"rt":1304,"stimulus":"You are going to start a new block with images of fruits","response":0,"trial_type":"html-button-response","trial_index":16,"time_elapsed":11862,"internal_node_id":"0.0-2.2-0.2"},{"rt":null,"stimulus":"<p style='font-size: 3rem;'>+</p>","response":null,"trial_type":"html-keyboard-response","trial_index":17,"time_elapsed":12371,"internal_node_id":"0.0-2.2-1.4-0.4"},{"rt":784,"stimulus":"./img/fruits/banana.jpg","response":0,"trial_type":"image-button-response","trial_index":18,"time_elapsed":13158,"internal_node_id":"0.0-2.2-1.4-1.4","accuracy":0},{"rt":null,"stimulus":"img/thumbsDown.png","response":null,"trial_type":"image-keyboard-response","trial_index":19,"time_elapsed":13672,"internal_node_id":"0.0-2.2-1.4-2.4"},{"rt":null,"stimulus":"<p style='font-size: 3rem;'>+</p>","response":null,"trial_type":"html-keyboard-response","trial_index":20,"time_elapsed":14174,"internal_node_id":"0.0-2.2-1.5-0.5"},{"rt":1047,"stimulus":"./img/fruits/kiwi.jpg","response":2,"trial_type":"image-button-response","trial_index":21,"time_elapsed":15222,"internal_node_id":"0.0-2.2-1.5-1.5","accuracy":0},{"rt":null,"stimulus":"img/thumbsDown.png","response":null,"trial_type":"image-keyboard-response","trial_index":22,"time_elapsed":15724,"internal_node_id":"0.0-2.2-1.5-2.5"},{"rt":1616,"stimulus":"<p>Thanks for participating</p>","response":0,"trial_type":"html-button-response","trial_index":23,"time_elapsed":17342,"internal_node_id":"0.0-3.0"},{"rt":3808,"response":{"Vegetables":2,"Meat":2,"Fruit":2},"question_order":[0,2,1],"trial_type":"survey-likert","trial_index":24,"time_elapsed":21151,"internal_node_id":"0.0-4.0"},{"success":true,"rt":null,"trial_type":"fullscreen","trial_index":25,"time_elapsed":22152,"internal_node_id":"0.0-5.0"},{"trials":[{"event":"fullscreenenter","trial":1,"time":1428},{"event":"fullscreenexit","trial":25,"time":21372}],"trial_tag":"interaction"},{"completedTask":"RLWM_expNOW","basename":"expNOW_unknownunknown","starting_time":"2023-11-21T09:16:36.380Z"}]