[{"rt":1417,"stimulus":"<p>Hello unknown</p>","response":0,"trial_type":"html-button-response","trial_index":0,"time_elapsed":1417,"internal_node_id":"0.0-0.0"},{"success":true,"rt":887,"trial_type":"fullscreen","trial_index":1,"time_elapsed":3402,"internal_node_id":"0.0-1.0"},{"rt":862,"stimulus":"You are going to start a new block with images of desserts","response":0,"trial_type":"html-button-response","trial_index":2,"time_elapsed":4266,"internal_node_id":"0.0-2.0-0.0"},{"rt":null,"stimulus":"<p style='font-size: 3rem;'>+</p>","response":null,"trial_type":"html-keyboard-response","trial_index":3,"time_elapsed":4773,"internal_node_id":"0.0-2.0-1.0-0.0"},{"rt":955,"stimulus":"./img/desserts/ice-cream_cone.jpg","response":0,"trial_type":"image-button-response","trial_index":4,"time_elapsed":5729,"internal_node_id":"0.0-2.0-1.0-1.0","accuracy":0},{"rt":null,"stimulus":"img/thumbsDown.png","response":null,"trial_type":"image-keyboard-response","trial_index":5,"time_elapsed":6232,"internal_node_id":"0.0-2.0-1.0-2.0"},{"rt":null,"stimulus":"<p style='font-size: 3rem;'>+</p>","response":null,"trial_type":"html-keyboard-response","trial_index":6,"time_elapsed":6745,"internal_node_id":"0.0-2.0-1.1-0.1"},{"rt":671,"stimulus":"./img/desserts/donut.jpg","response":0,"trial_type":"image-button-response","trial_index":7,"time_elapsed":7417,"internal_node_id":"0.0-2.0-1.1-1.1","accuracy":1},{"rt":null,"stimulus":"img/thumbsUp.png","response":null,"trial_type":"image-keyboard-response","trial_index":8,"time_elapsed":7927,"internal_node_id":"0.0-2.0-1.1-2.1"},{"rt":null,"stimulus":"<p style='font-size: 3rem;'>+</p>","response":null,"trial_type":"html-keyboard-response","trial_index":9,"time_elapsed":8434,"internal_node_id":"0.0-2.0-1.2-0.2"},{"rt":926,"stimulus":"./img/desserts/dessert.jpg","response":1,"trial_type":"image-button-response","trial_index":10,"time_elapsed":9361,"internal_node_id":"0.0-2.0-1.2-1.2","accuracy":0},{"rt":null,"stimulus":"img/thumbsDown.png","response":null,"trial_type":"image-keyboard-response","trial_index":11,"time_elapsed":9877,"internal_node_id":"0.0-2.0-1.2-2.2"},{"rt":984,"stimulus":"You are going to start a new block with images of fruits","response":0,"trial_type":"html-button-response","trial_index":12,"time_elapsed":10865,"internal_node_id":"0.0-2.1-0.1"},{"rt":null,"stimulus":"<p style='font-size: 3rem;'>+</p>","response":null,"trial_type":"html-keyboard-response","trial_index":13,"time_elapsed":11368,"internal_node_id":"0.0-2.1-1.3-0.3"},{"rt":790,"stimulus":"./img/fruits/banana.jpg","response":0,"trial_type":"image-button-response","trial_index":14,"time_elapsed":12161,"internal_node_id":"0.0-2.1-1.3-1.3","accuracy":1},{"rt":null,"stimulus":"img/thumbsUp.png","response":null,"trial_type":"image-keyboard-response","trial_index":15,"time_elapsed":12674,"internal_node_id":"0.0-2.1-1.3-2.3"},{"rt":null,"stimulus":"<p style='font-size: 3rem;'>+</p>","response":null,"trial_type":"html-keyboard-response","trial_index":16,"time_elapsed":13189,"internal_node_id":"0.0-2.1-1.4-0.4"},{"rt":1388,"stimulus":"./img/fruits/kiwi.jpg","response":0,"trial_type":"image-button-response","trial_index":17,"time_elapsed":14578,"internal_node_id":"0.0-2.1-1.4-1.4","accuracy":0},{"rt":null,"stimulus":"img/thumbsDown.png","response":null,"trial_type":"image-keyboard-response","trial_index":18,"time_elapsed":15090,"internal_node_id":"0.0-2.1-1.4-2.4"},{"rt":701,"stimulus":"You are going to start a new block with images of vegetables","response":0,"trial_type":"html-button-response","trial_index":19,"time_elapsed":15792,"internal_node_id":"0.0-2.2-0.2"},{"rt":null,"stimulus":"<p style='font-size: 3rem;'>+</p>","response":null,"trial_type":"html-keyboard-response","trial_index":20,"time_elapsed":16341,"internal_node_id":"0.0-2.2-1.5-0.5"},{"rt":635,"stimulus":"./img/vegetables/eggplant.jpg","response":1,"trial_type":"image-button-response","trial_index":21,"time_elapsed":16978,"internal_node_id":"0.0-2.2-1.5-1.5","accuracy":0},{"rt":null,"stimulus":"img/thumbsDown.png","response":null,"trial_type":"image-keyboard-response","trial_index":22,"time_elapsed":17491,"internal_node_id":"0.0-2.2-1.5-2.5"},{"rt":687,"stimulus":"<p>Thanks for participating</p>","response":0,"trial_type":"html-button-response","trial_index":23,"time_elapsed":18177,"internal_node_id":"0.0-3.0"},{"rt":3301,"response":{"Fruit":2,"Vegetables":2,"Meat":2},"question_order":[1,0,2],"trial_type":"survey-likert","trial_index":24,"time_elapsed":21479,"internal_node_id":"0.0-4.0"},{"success":true,"rt":null,"trial_type":"fullscreen","trial_index":25,"time_elapsed":22481,"internal_node_id":"0.0-5.0"},{"trials":[{"event":"fullscreenenter","trial":1,"time":2516},{"event":"fullscreenexit","trial":25,"time":21701}],"trial_tag":"interaction"},{"completedTask":"RLWM_expNOW","basename":"expNOW_unknownunknown","starting_time":"2023-11-21T09:10:33.875Z"}]