[{"success":true,"timeout":false,"failed_images":[],"failed_audio":[],"failed_video":[],"trial_type":"preload","trial_index":0,"time_elapsed":145,"internal_node_id":"0.0-0.0"},{"rt":4774,"stimulus":"<strong>Welcome to the Visual Search Experiment.</strong><br>There will be 1 blocks in this experiment. There will be 16 trials in each block.<br>You will have the opportunity to take a break between blocks. Press any key to start the experiment.","response":" ","trial_type":"html-keyboard-response","trial_index":1,"time_elapsed":4918,"internal_node_id":"0.0-1.0"},{"rt":862,"stimulus":"Keep staring at the black dot in the center of the screen. <br>Use the j and f keys to indicate whether or not the target is present. <br><strong>If the target is present press j. If not press f.</strong><br>There can be one or more target images.<br>Below you will see an example of the target image(s).<br><br><span style=\"padding-right:50px\"><img src=\"assets/images/blueL.png\" alt=\"Picture\" width=50px, height=50px></span><span style=\"padding-right:$IMG_Wpx\"><img src=\"assets/images/blueT.png\" alt=\"Picture\" width=$IMG_Wpx, height=50px></span>","response":" ","trial_type":"html-keyboard-response","trial_index":2,"time_elapsed":5782,"internal_node_id":"0.0-2.0"},{"rt":2727,"stimulus":"There will be 16 practice trials before the experiment begins. Press any key to start.","response":" ","trial_type":"html-keyboard-response","trial_index":3,"time_elapsed":8510,"internal_node_id":"0.0-3.0"},{"correct":true,"rt":524,"response":"f","locations":[[311,79],[263,28],[198,2],[127,5],[64,35],[19,89],[0,157],[10,226],[47,286],[105,325],[174,337],[242,320],[298,277],[331,215],[335,145]],"target_present":false,"set_size":15,"practice_trial":true,"trial_type":"visual-search-circle","trial_index":4,"time_elapsed":10038,"internal_node_id":"0.0-4.0-0.0"},{"rt":null,"stimulus":"You have completed 1 of 16 trials. Get ready for the next trial.","response":null,"trial_type":"html-keyboard-response","trial_index":5,"time_elapsed":11054,"internal_node_id":"0.0-4.0-1.0"},{"correct":true,"rt":90,"response":"f","locations":[[71,307],[270,303],[328,113],[165,0],[7,119]],"target_present":false,"set_size":5,"practice_trial":true,"trial_type":"visual-search-circle","trial_index":6,"time_elapsed":12158,"internal_node_id":"0.0-4.0-0.1"},{"rt":null,"stimulus":"You have completed 2 of 16 trials. Get ready for the next trial.","response":null,"trial_type":"html-keyboard-response","trial_index":7,"time_elapsed":13171,"internal_node_id":"0.0-4.0-1.1"},{"correct":false,"rt":125,"response":"f","locations":[[76,27],[5,212],[159,337],[326,229],[275,37]],"target_present":true,"set_size":5,"practice_trial":true,"trial_type":"visual-search-circle","trial_index":8,"time_elapsed":14310,"internal_node_id":"0.0-4.0-0.2"},{"rt":null,"stimulus":"You have completed 3 of 16 trials. Get ready for the next trial.","response":null,"trial_type":"html-keyboard-response","trial_index":9,"time_elapsed":15322,"internal_node_id":"0.0-4.0-1.2"},{"correct":true,"rt":11,"response":"f","locations":[[277,39],[215,6],[145,1],[79,25],[28,74],[2,139],[5,209],[35,272],[89,317],[157,337],[226,327],[286,290],[325,232],[337,162],[320,94]],"target_present":false,"set_size":15,"practice_trial":true,"trial_type":"visual-search-circle","trial_index":10,"time_elapsed":16405,"internal_node_id":"0.0-4.0-0.3"},{"rt":null,"stimulus":"You have completed 4 of 16 trials. Get ready for the next trial.","response":null,"trial_type":"html-keyboard-response","trial_index":11,"time_elapsed":17417,"internal_node_id":"0.0-4.0-1.3"},{"correct":true,"rt":0,"response":"f","locations":[[220,329],[253,315],[281,294],[305,268],[323,237],[333,203],[337,168],[333,133],[323,100],[305,69],[281,43],[253,22],[220,8],[186,0],[151,0],[116,8],[84,22],[55,43],[32,69],[14,100],[3,133],[0,168],[3,203],[14,237],[32,268],[55,294],[84,315],[116,329],[151,336],[186,336]],"target_present":false,"set_size":30,"practice_trial":true,"trial_type":"visual-search-circle","trial_index":12,"time_elapsed":18437,"internal_node_id":"0.0-4.0-0.4"},{"rt":null,"stimulus":"You have completed 5 of 16 trials. Get ready for the next trial.","response":null,"trial_type":"html-keyboard-response","trial_index":13,"time_elapsed":19440,"internal_node_id":"0.0-4.0-1.4"},{"correct":true,"rt":175,"response":"j","locations":[[336,189],[330,119],[296,58],[240,15],[171,0],[102,13],[45,53],[9,113],[0,183],[21,250],[67,303],[130,333],[201,334],[265,307],[313,255]],"target_present":true,"set_size":15,"practice_trial":true,"trial_type":"visual-search-circle","trial_index":14,"time_elapsed":20630,"internal_node_id":"0.0-4.0-0.5"},{"rt":null,"stimulus":"You have completed 6 of 16 trials. Get ready for the next trial.","response":null,"trial_type":"html-keyboard-response","trial_index":15,"time_elapsed":21631,"internal_node_id":"0.0-4.0-1.5"},{"correct":true,"rt":283,"response":"j","locations":[[335,195],[337,159],[331,125],[319,92],[299,62],[275,37],[245,18],[212,5],[177,0],[142,2],[108,11],[76,27],[49,49],[27,76],[11,108],[2,142],[0,177],[5,212],[18,245],[37,275],[62,299],[92,319],[125,331],[159,337],[195,335],[229,326],[260,310],[288,288],[310,260],[326,229]],"target_present":true,"set_size":30,"practice_trial":true,"trial_type":"visual-search-circle","trial_index":16,"time_elapsed":22934,"internal_node_id":"0.0-4.0-0.6"},{"rt":null,"stimulus":"You have completed 7 of 16 trials. Get ready for the next trial.","response":null,"trial_type":"html-keyboard-response","trial_index":17,"time_elapsed":23938,"internal_node_id":"0.0-4.0-1.6"},{"correct":false,"rt":79,"response":"j","locations":[[5,212],[159,337],[326,229],[275,37],[76,27]],"target_present":false,"set_size":5,"practice_trial":true,"trial_type":"visual-search-circle","trial_index":18,"time_elapsed":25030,"internal_node_id":"0.0-4.0-0.7"},{"rt":null,"stimulus":"You have completed 8 of 16 trials. Get ready for the next trial.","response":null,"trial_type":"html-keyboard-response","trial_index":19,"time_elapsed":26040,"internal_node_id":"0.0-4.0-1.7"},{"correct":true,"rt":53,"response":"j","locations":[[329,220],[336,186],[336,151],[329,116],[315,84],[294,55],[268,32],[237,14],[203,3],[168,0],[133,3],[100,14],[69,32],[43,55],[22,84],[8,116],[0,151],[0,186],[8,220],[22,253],[43,281],[69,305],[100,323],[133,333],[168,337],[203,333],[237,323],[268,305],[294,281],[315,253]],"target_present":true,"set_size":30,"practice_trial":true,"trial_type":"visual-search-circle","trial_index":20,"time_elapsed":27111,"internal_node_id":"0.0-4.0-0.8"},{"rt":null,"stimulus":"You have completed 9 of 16 trials. Get ready for the next trial.","response":null,"trial_type":"html-keyboard-response","trial_index":21,"time_elapsed":28122,"internal_node_id":"0.0-4.0-1.8"},{"correct":true,"rt":14,"response":"j","locations":[[62,37],[18,92],[0,159],[11,229],[49,288],[108,326],[177,337],[245,319],[299,275],[331,212],[335,142],[310,76],[260,27],[195,2],[125,5]],"target_present":true,"set_size":15,"practice_trial":true,"trial_type":"visual-search-circle","trial_index":22,"time_elapsed":29151,"internal_node_id":"0.0-4.0-0.9"},{"rt":null,"stimulus":"You have completed 10 of 16 trials. Get ready for the next trial.","response":null,"trial_type":"html-keyboard-response","trial_index":23,"time_elapsed":30272,"internal_node_id":"0.0-4.0-1.9"},{"correct":false,"rt":103,"response":"j","locations":[[248,19]],"target_present":false,"set_size":1,"practice_trial":true,"trial_type":"visual-search-circle","trial_index":24,"time_elapsed":31382,"internal_node_id":"0.0-4.0-0.10"},{"rt":null,"stimulus":"You have completed 11 of 16 trials. Get ready for the next trial.","response":null,"trial_type":"html-keyboard-response","trial_index":25,"time_elapsed":32394,"internal_node_id":"0.0-4.0-1.10"},{"correct":false,"rt":154,"response":"j","locations":[[186,0],[151,0],[116,8],[84,22],[55,43],[32,69],[14,100],[3,133],[0,168],[3,203],[14,237],[32,268],[55,294],[84,315],[116,329],[151,336],[186,336],[220,329],[253,315],[281,294],[305,268],[323,237],[333,203],[337,168],[333,133],[323,100],[305,69],[281,43],[253,22],[220,8]],"target_present":false,"set_size":30,"practice_trial":true,"trial_type":"visual-search-circle","trial_index":26,"time_elapsed":33567,"internal_node_id":"0.0-4.0-0.11"},{"rt":null,"stimulus":"You have completed 12 of 16 trials. Get ready for the next trial.","response":null,"trial_type":"html-keyboard-response","trial_index":27,"time_elapsed":34573,"internal_node_id":"0.0-4.0-1.11"},{"correct":true,"rt":245,"response":"j","locations":[[81,24],[4,206],[154,336],[324,234],[279,41]],"target_present":true,"set_size":5,"practice_trial":true,"trial_type":"visual-search-circle","trial_index":28,"time_elapsed":35831,"internal_node_id":"0.0-4.0-0.12"},{"rt":null,"stimulus":"You have completed 13 of 16 trials. Get ready for the next trial.","response":null,"trial_type":"html-keyboard-response","trial_index":29,"time_elapsed":36841,"internal_node_id":"0.0-4.0-1.12"},{"correct":true,"rt":65,"response":"j","locations":[[260,310]],"target_present":true,"set_size":1,"practice_trial":true,"trial_type":"visual-search-circle","trial_index":30,"time_elapsed":37918,"internal_node_id":"0.0-4.0-0.13"},{"rt":null,"stimulus":"You have completed 14 of 16 trials. Get ready for the next trial.","response":null,"trial_type":"html-keyboard-response","trial_index":31,"time_elapsed":38927,"internal_node_id":"0.0-4.0-1.13"},{"correct":false,"rt":126,"response":"j","locations":[[242,17]],"target_present":false,"set_size":1,"practice_trial":true,"trial_type":"visual-search-circle","trial_index":32,"time_elapsed":40062,"internal_node_id":"0.0-4.0-0.14"},{"rt":null,"stimulus":"You have completed 15 of 16 trials. Get ready for the next trial.","response":null,"trial_type":"html-keyboard-response","trial_index":33,"time_elapsed":41070,"internal_node_id":"0.0-4.0-1.14"},{"correct":true,"rt":92,"response":"j","locations":[[127,5]],"target_present":true,"set_size":1,"practice_trial":true,"trial_type":"visual-search-circle","trial_index":34,"time_elapsed":42175,"internal_node_id":"0.0-4.0-0.15"},{"rt":null,"stimulus":"You have completed 16 of 16 trials. Get ready for the next trial.","response":null,"trial_type":"html-keyboard-response","trial_index":35,"time_elapsed":43188,"internal_node_id":"0.0-4.0-1.15"},{"correct":true,"rt":492,"response":"j","locations":[[263,308],[311,258],[335,192],[331,122],[298,60],[242,17],[174,0],[105,12],[47,51],[10,111],[0,180],[19,248],[64,301],[127,332],[198,335]],"target_present":true,"set_size":15,"practice_trial":false,"trial_type":"visual-search-circle","trial_index":36,"time_elapsed":44694,"internal_node_id":"0.0-5.0-0.0"},{"rt":null,"stimulus":"You have completed 1 of 16 trials. Get ready for the next trial.","response":null,"trial_type":"html-keyboard-response","trial_index":37,"time_elapsed":45695,"internal_node_id":"0.0-5.0-1.0"},{"correct":true,"rt":195,"response":"j","locations":[[301,272],[320,242],[332,209],[337,174],[335,139],[325,105],[308,74],[286,47],[258,25],[226,10],[192,1],[157,0],[122,6],[89,19],[60,39],[35,64],[17,94],[5,127],[0,162],[2,198],[12,232],[28,263],[51,290],[79,311],[111,327],[145,335],[180,337],[215,331],[248,317],[277,298]],"target_present":true,"set_size":30,"practice_trial":false,"trial_type":"visual-search-circle","trial_index":38,"time_elapsed":46902,"internal_node_id":"0.0-5.0-0.1"},{"rt":null,"stimulus":"You have completed 2 of 16 trials. Get ready for the next trial.","response":null,"trial_type":"html-keyboard-response","trial_index":39,"time_elapsed":47913,"internal_node_id":"0.0-5.0-1.1"},{"correct":false,"rt":125,"response":"j","locations":[[281,43],[84,22],[3,203],[151,336],[323,237]],"target_present":false,"set_size":5,"practice_trial":false,"trial_type":"visual-search-circle","trial_index":40,"time_elapsed":49046,"internal_node_id":"0.0-5.0-0.2"},{"rt":null,"stimulus":"You have completed 3 of 16 trials. Get ready for the next trial.","response":null,"trial_type":"html-keyboard-response","trial_index":41,"time_elapsed":50053,"internal_node_id":"0.0-5.0-1.2"},{"correct":true,"rt":92,"response":"j","locations":[[133,3]],"target_present":true,"set_size":1,"practice_trial":false,"trial_type":"visual-search-circle","trial_index":42,"time_elapsed":51151,"internal_node_id":"0.0-5.0-0.3"},{"rt":null,"stimulus":"You have completed 4 of 16 trials. Get ready for the next trial.","response":null,"trial_type":"html-keyboard-response","trial_index":43,"time_elapsed":52162,"internal_node_id":"0.0-5.0-1.3"},{"correct":false,"rt":21,"response":"j","locations":[[41,279],[67,303],[97,321],[130,333],[165,337],[201,334],[234,324],[265,307],[292,283],[313,255],[328,223],[336,189],[336,154],[330,119],[316,86],[296,58],[270,33],[240,15],[206,4],[171,0],[136,3],[102,13],[71,30],[45,53],[24,81],[9,113],[1,148],[0,183],[7,218],[21,250]],"target_present":false,"set_size":30,"practice_trial":false,"trial_type":"visual-search-circle","trial_index":44,"time_elapsed":53198,"internal_node_id":"0.0-5.0-0.4"},{"rt":null,"stimulus":"You have completed 5 of 16 trials. Get ready for the next trial.","response":null,"trial_type":"html-keyboard-response","trial_index":45,"time_elapsed":54212,"internal_node_id":"0.0-5.0-1.4"},{"correct":true,"rt":246,"response":"j","locations":[[3,136],[4,206],[33,270],[86,316],[154,336],[223,328],[283,292],[324,234],[337,165],[321,97],[279,41],[218,7],[148,1],[81,24],[30,71]],"target_present":true,"set_size":15,"practice_trial":false,"trial_type":"visual-search-circle","trial_index":46,"time_elapsed":55470,"internal_node_id":"0.0-5.0-0.5"},{"rt":null,"stimulus":"You have completed 6 of 16 trials. Get ready for the next trial.","response":null,"trial_type":"html-keyboard-response","trial_index":47,"time_elapsed":56483,"internal_node_id":"0.0-5.0-1.5"},{"correct":false,"rt":25,"response":"j","locations":[[260,27]],"target_present":false,"set_size":1,"practice_trial":false,"trial_type":"visual-search-circle","trial_index":48,"time_elapsed":57518,"internal_node_id":"0.0-5.0-0.6"},{"rt":null,"stimulus":"You have completed 7 of 16 trials. Get ready for the next trial.","response":null,"trial_type":"html-keyboard-response","trial_index":49,"time_elapsed":58520,"internal_node_id":"0.0-5.0-1.6"},{"correct":false,"rt":105,"response":"j","locations":[[15,97],[0,165],[13,234],[53,292],[113,328],[183,336],[250,316],[303,270],[333,206],[334,136],[307,71],[255,24],[189,1],[119,7],[58,41]],"target_present":false,"set_size":15,"practice_trial":false,"trial_type":"visual-search-circle","trial_index":50,"time_elapsed":59638,"internal_node_id":"0.0-5.0-0.7"},{"rt":null,"stimulus":"You have completed 8 of 16 trials. Get ready for the next trial.","response":null,"trial_type":"html-keyboard-response","trial_index":51,"time_elapsed":60652,"internal_node_id":"0.0-5.0-1.7"},{"correct":false,"rt":125,"response":"j","locations":[[336,186],[237,14],[43,55],[22,253],[203,333]],"target_present":false,"set_size":5,"practice_trial":false,"trial_type":"visual-search-circle","trial_index":52,"time_elapsed":61790,"internal_node_id":"0.0-5.0-0.8"},{"rt":null,"stimulus":"You have completed 9 of 16 trials. Get ready for the next trial.","response":null,"trial_type":"html-keyboard-response","trial_index":53,"time_elapsed":62796,"internal_node_id":"0.0-5.0-1.8"},{"correct":false,"rt":216,"response":"j","locations":[[310,260],[326,229],[335,195],[337,159],[331,125],[319,92],[299,62],[275,37],[245,18],[212,5],[177,0],[142,2],[108,11],[76,27],[49,49],[27,76],[11,108],[2,142],[0,177],[5,212],[18,245],[37,275],[62,299],[92,319],[125,331],[159,337],[195,335],[229,326],[260,310],[288,288]],"target_present":false,"set_size":30,"practice_trial":false,"trial_type":"visual-search-circle","trial_index":54,"time_elapsed":64030,"internal_node_id":"0.0-5.0-0.9"},{"rt":null,"stimulus":"You have completed 10 of 16 trials. Get ready for the next trial.","response":null,"trial_type":"html-keyboard-response","trial_index":55,"time_elapsed":65033,"internal_node_id":"0.0-5.0-1.9"},{"correct":true,"rt":147,"response":"j","locations":[[319,245],[331,212],[337,177],[335,142],[326,108],[310,76],[288,49],[260,27],[229,11],[195,2],[159,0],[125,5],[92,18],[62,37],[37,62],[18,92],[5,125],[0,159],[2,195],[11,229],[27,260],[49,288],[76,310],[108,326],[142,335],[177,337],[212,331],[245,319],[275,299],[299,275]],"target_present":true,"set_size":30,"practice_trial":false,"trial_type":"visual-search-circle","trial_index":56,"time_elapsed":66198,"internal_node_id":"0.0-5.0-0.10"},{"rt":null,"stimulus":"You have completed 11 of 16 trials. Get ready for the next trial.","response":null,"trial_type":"html-keyboard-response","trial_index":57,"time_elapsed":67199,"internal_node_id":"0.0-5.0-1.10"},{"correct":false,"rt":257,"response":"j","locations":[[324,234]],"target_present":false,"set_size":1,"practice_trial":false,"trial_type":"visual-search-circle","trial_index":58,"time_elapsed":68471,"internal_node_id":"0.0-5.0-0.11"},{"rt":null,"stimulus":"You have completed 12 of 16 trials. Get ready for the next trial.","response":null,"trial_type":"html-keyboard-response","trial_index":59,"time_elapsed":69487,"internal_node_id":"0.0-5.0-1.11"},{"correct":true,"rt":135,"response":"j","locations":[[12,105],[60,298],[258,311],[332,127],[180,0]],"target_present":true,"set_size":5,"practice_trial":false,"trial_type":"visual-search-circle","trial_index":60,"time_elapsed":70632,"internal_node_id":"0.0-5.0-0.12"},{"rt":null,"stimulus":"You have completed 13 of 16 trials. Get ready for the next trial.","response":null,"trial_type":"html-keyboard-response","trial_index":61,"time_elapsed":71632,"internal_node_id":"0.0-5.0-1.12"},{"correct":true,"rt":117,"response":"j","locations":[[272,35],[74,28],[6,215],[162,337],[327,226]],"target_present":true,"set_size":5,"practice_trial":false,"trial_type":"visual-search-circle","trial_index":62,"time_elapsed":72759,"internal_node_id":"0.0-5.0-0.13"},{"rt":null,"stimulus":"You have completed 14 of 16 trials. Get ready for the next trial.","response":null,"trial_type":"html-keyboard-response","trial_index":63,"time_elapsed":73774,"internal_node_id":"0.0-5.0-1.13"},{"correct":false,"rt":52,"response":"j","locations":[[86,21],[33,67],[4,130],[3,201],[30,265],[81,313],[148,336],[218,330],[279,296],[321,240],[337,171],[324,102],[283,45],[223,9],[154,0]],"target_present":false,"set_size":15,"practice_trial":false,"trial_type":"visual-search-circle","trial_index":64,"time_elapsed":74839,"internal_node_id":"0.0-5.0-0.14"},{"rt":null,"stimulus":"You have completed 15 of 16 trials. Get ready for the next trial.","response":null,"trial_type":"html-keyboard-response","trial_index":65,"time_elapsed":75841,"internal_node_id":"0.0-5.0-1.14"},{"correct":true,"rt":37,"response":"j","locations":[[331,125]],"target_present":true,"set_size":1,"practice_trial":false,"trial_type":"visual-search-circle","trial_index":66,"time_elapsed":76999,"internal_node_id":"0.0-5.0-0.15"},{"rt":null,"stimulus":"You have completed 16 of 16 trials. Get ready for the next trial.","response":null,"trial_type":"html-keyboard-response","trial_index":67,"time_elapsed":78033,"internal_node_id":"0.0-5.0-1.15"},{"completedTask":"Vsearch_expNOW","basename":"expNOW_unknownunknown"}]