[{"rt":1279,"stimulus":"<p>Hello unknown</p>","response":0,"trial_type":"html-button-response","trial_index":0,"time_elapsed":1279,"internal_node_id":"0.0-0.0"},{"success":true,"rt":687,"trial_type":"fullscreen","trial_index":1,"time_elapsed":2967,"internal_node_id":"0.0-1.0"},{"rt":775,"stimulus":"You are going to start a new block with images of fruits","response":0,"trial_type":"html-button-response","trial_index":2,"time_elapsed":3742,"internal_node_id":"0.0-2.0-0.0"},{"rt":null,"stimulus":"<p style='font-size: 3rem;'>+</p>","response":null,"trial_type":"html-keyboard-response","trial_index":3,"time_elapsed":4246,"internal_node_id":"0.0-2.0-1.0-0.0"},{"rt":null,"stimulus":"./img/fruits/raspberry.jpg","response":null,"trial_type":"image-button-response","trial_index":4,"time_elapsed":7353,"internal_node_id":"0.0-2.0-1.0-1.0","accuracy":-1},{"rt":null,"stimulus":"img/missedFb.png","response":null,"trial_type":"image-keyboard-response","trial_index":5,"time_elapsed":7869,"internal_node_id":"0.0-2.0-1.0-2.0"},{"rt":null,"stimulus":"<p style='font-size: 3rem;'>+</p>","response":null,"trial_type":"html-keyboard-response","trial_index":6,"time_elapsed":8377,"internal_node_id":"0.0-2.0-1.1-0.1"},{"rt":null,"stimulus":"./img/fruits/grapefruit.jpg","response":null,"trial_type":"image-button-response","trial_index":7,"time_elapsed":11401,"internal_node_id":"0.0-2.0-1.1-1.1","accuracy":-1},{"rt":null,"stimulus":"img/missedFb.png","response":null,"trial_type":"image-keyboard-response","trial_index":8,"time_elapsed":11912,"internal_node_id":"0.0-2.0-1.1-2.1"},{"rt":17438,"stimulus":"You are going to start a new block with images of vegetables","response":0,"trial_type":"html-button-response","trial_index":9,"time_elapsed":29351,"internal_node_id":"0.0-2.1-0.1"},{"rt":null,"stimulus":"<p style='font-size: 3rem;'>+</p>","response":null,"trial_type":"html-keyboard-response","trial_index":10,"time_elapsed":29862,"internal_node_id":"0.0-2.1-1.2-0.2"},{"rt":1288,"stimulus":"./img/vegetables/carrot.jpg","response":1,"trial_type":"image-button-response","trial_index":11,"time_elapsed":31151,"internal_node_id":"0.0-2.1-1.2-1.2","accuracy":0},{"rt":null,"stimulus":"img/thumbsDown.png","response":null,"trial_type":"image-keyboard-response","trial_index":12,"time_elapsed":31666,"internal_node_id":"0.0-2.1-1.2-2.2"},{"rt":724,"stimulus":"You are going to start a new block with images of desserts","response":0,"trial_type":"html-button-response","trial_index":13,"time_elapsed":32391,"internal_node_id":"0.0-2.2-0.2"},{"rt":null,"stimulus":"<p style='font-size: 3rem;'>+</p>","response":null,"trial_type":"html-keyboard-response","trial_index":14,"time_elapsed":32911,"internal_node_id":"0.0-2.2-1.3-0.3"},{"rt":801,"stimulus":"./img/desserts/milkshake.jpg","response":0,"trial_type":"image-button-response","trial_index":15,"time_elapsed":33712,"internal_node_id":"0.0-2.2-1.3-1.3","accuracy":0},{"rt":null,"stimulus":"img/thumbsDown.png","response":null,"trial_type":"image-keyboard-response","trial_index":16,"time_elapsed":34229,"internal_node_id":"0.0-2.2-1.3-2.3"},{"rt":null,"stimulus":"<p style='font-size: 3rem;'>+</p>","response":null,"trial_type":"html-keyboard-response","trial_index":17,"time_elapsed":34775,"internal_node_id":"0.0-2.2-1.4-0.4"},{"rt":1047,"stimulus":"./img/desserts/dessert.jpg","response":0,"trial_type":"image-button-response","trial_index":18,"time_elapsed":35824,"internal_node_id":"0.0-2.2-1.4-1.4","accuracy":1},{"rt":null,"stimulus":"img/thumbsUp.png","response":null,"trial_type":"image-keyboard-response","trial_index":19,"time_elapsed":36340,"internal_node_id":"0.0-2.2-1.4-2.4"},{"rt":null,"stimulus":"<p style='font-size: 3rem;'>+</p>","response":null,"trial_type":"html-keyboard-response","trial_index":20,"time_elapsed":36854,"internal_node_id":"0.0-2.2-1.5-0.5"},{"rt":729,"stimulus":"./img/desserts/brownie.jpg","response":1,"trial_type":"image-button-response","trial_index":21,"time_elapsed":37584,"internal_node_id":"0.0-2.2-1.5-1.5","accuracy":0},{"rt":null,"stimulus":"img/thumbsDown.png","response":null,"trial_type":"image-keyboard-response","trial_index":22,"time_elapsed":38099,"internal_node_id":"0.0-2.2-1.5-2.5"},{"rt":1922,"stimulus":"<p>Thanks for participating</p>","response":0,"trial_type":"html-button-response","trial_index":23,"time_elapsed":40023,"internal_node_id":"0.0-3.0"},{"rt":4736,"response":{"Meat":2,"Vegetables":2,"Fruit":2},"question_order":[2,0,1],"trial_type":"survey-likert","trial_index":24,"time_elapsed":44759,"internal_node_id":"0.0-4.0"},{"success":true,"rt":null,"trial_type":"fullscreen","trial_index":25,"time_elapsed":45768,"internal_node_id":"0.0-5.0"},{"trials":[{"event":"fullscreenenter","trial":1,"time":2195},{"event":"blur","trial":4,"time":5455},{"event":"focus","trial":5,"time":7578},{"event":"blur","trial":7,"time":8719},{"event":"focus","trial":9,"time":29266},{"event":"fullscreenexit","trial":25,"time":44973}],"trial_tag":"interaction"},{"completedTask":"RLWM_expNOW","basename":"expNOW_unknownunknown","starting_time":"2023-11-21T09:13:19.123Z"}]