[{"rt":2480,"stimulus":"<p>Hello unknown</p>","response":0,"trial_type":"html-button-response","trial_index":0,"time_elapsed":2481,"internal_node_id":"0.0-0.0"},{"success":true,"rt":567,"trial_type":"fullscreen","trial_index":1,"time_elapsed":4059,"internal_node_id":"0.0-1.0"},{"rt":1133,"stimulus":"You are going to start a new block with images of vegetables","response":0,"trial_type":"html-button-response","trial_index":2,"time_elapsed":5193,"internal_node_id":"0.0-2.0-0.0"},{"rt":null,"stimulus":"<p style='font-size: 3rem;'>+</p>","response":null,"trial_type":"html-keyboard-response","trial_index":3,"time_elapsed":5694,"internal_node_id":"0.0-2.0-1.0-0.0"},{"rt":897,"stimulus":"./img/vegetables/carrot.jpg","response":0,"trial_type":"image-button-response","trial_index":4,"time_elapsed":6593,"internal_node_id":"0.0-2.0-1.0-1.0","accuracy":1},{"rt":null,"stimulus":"img/thumbsUp.png","response":null,"trial_type":"image-keyboard-response","trial_index":5,"time_elapsed":7098,"internal_node_id":"0.0-2.0-1.0-2.0"},{"rt":1414,"stimulus":"You are going to start a new block with images of desserts","response":0,"trial_type":"html-button-response","trial_index":6,"time_elapsed":8513,"internal_node_id":"0.0-2.1-0.1"},{"rt":null,"stimulus":"<p style='font-size: 3rem;'>+</p>","response":null,"trial_type":"html-keyboard-response","trial_index":7,"time_elapsed":9026,"internal_node_id":"0.0-2.1-1.1-0.1"},{"rt":1067,"stimulus":"./img/desserts/donut.jpg","response":0,"trial_type":"image-button-response","trial_index":8,"time_elapsed":10097,"internal_node_id":"0.0-2.1-1.1-1.1","accuracy":0},{"rt":null,"stimulus":"img/thumbsDown.png","response":null,"trial_type":"image-keyboard-response","trial_index":9,"time_elapsed":10650,"internal_node_id":"0.0-2.1-1.1-2.1"},{"rt":null,"stimulus":"<p style='font-size: 3rem;'>+</p>","response":null,"trial_type":"html-keyboard-response","trial_index":10,"time_elapsed":11166,"internal_node_id":"0.0-2.1-1.2-0.2"},{"rt":817,"stimulus":"./img/desserts/cake.jpg","response":0,"trial_type":"image-button-response","trial_index":11,"time_elapsed":11985,"internal_node_id":"0.0-2.1-1.2-1.2","accuracy":1},{"rt":null,"stimulus":"img/thumbsUp.png","response":null,"trial_type":"image-keyboard-response","trial_index":12,"time_elapsed":12517,"internal_node_id":"0.0-2.1-1.2-2.2"},{"rt":null,"stimulus":"<p style='font-size: 3rem;'>+</p>","response":null,"trial_type":"html-keyboard-response","trial_index":13,"time_elapsed":13030,"internal_node_id":"0.0-2.1-1.3-0.3"},{"rt":907,"stimulus":"./img/desserts/milkshake.jpg","response":0,"trial_type":"image-button-response","trial_index":14,"time_elapsed":13938,"internal_node_id":"0.0-2.1-1.3-1.3","accuracy":0},{"rt":null,"stimulus":"img/thumbsDown.png","response":null,"trial_type":"image-keyboard-response","trial_index":15,"time_elapsed":14446,"internal_node_id":"0.0-2.1-1.3-2.3"},{"rt":803,"stimulus":"You are going to start a new block with images of fruits","response":0,"trial_type":"html-button-response","trial_index":16,"time_elapsed":15248,"internal_node_id":"0.0-2.2-0.2"},{"rt":null,"stimulus":"<p style='font-size: 3rem;'>+</p>","response":null,"trial_type":"html-keyboard-response","trial_index":17,"time_elapsed":15750,"internal_node_id":"0.0-2.2-1.4-0.4"},{"rt":657,"stimulus":"./img/fruits/grapefruit.jpg","response":0,"trial_type":"image-button-response","trial_index":18,"time_elapsed":16408,"internal_node_id":"0.0-2.2-1.4-1.4","accuracy":0},{"rt":null,"stimulus":"img/thumbsDown.png","response":null,"trial_type":"image-keyboard-response","trial_index":19,"time_elapsed":16916,"internal_node_id":"0.0-2.2-1.4-2.4"},{"rt":null,"stimulus":"<p style='font-size: 3rem;'>+</p>","response":null,"trial_type":"html-keyboard-response","trial_index":20,"time_elapsed":17430,"internal_node_id":"0.0-2.2-1.5-0.5"},{"rt":872,"stimulus":"./img/fruits/blueberry.jpg","response":0,"trial_type":"image-button-response","trial_index":21,"time_elapsed":18305,"internal_node_id":"0.0-2.2-1.5-1.5","accuracy":1},{"rt":null,"stimulus":"img/thumbsUp.png","response":null,"trial_type":"image-keyboard-response","trial_index":22,"time_elapsed":18816,"internal_node_id":"0.0-2.2-1.5-2.5"},{"rt":4753,"response":{"Meat":"","Vegetables":"","Fruit":1},"question_order":[2,0,1],"trial_type":"survey-likert","trial_index":23,"time_elapsed":23571,"internal_node_id":"0.0-3.0"},{"rt":918,"stimulus":"<p>Thanks for participating</p>","response":0,"trial_type":"html-button-response","trial_index":24,"time_elapsed":24489,"internal_node_id":"0.0-4.0"},{"rt":3727,"response":{"Meat":2,"Vegetables":2,"Fruit":2},"question_order":[2,0,1],"trial_type":"survey-likert","trial_index":25,"time_elapsed":28217,"internal_node_id":"0.0-5.0"},{"success":true,"rt":null,"trial_type":"fullscreen","trial_index":26,"time_elapsed":29221,"internal_node_id":"0.0-6.0"},{"trials":[{"event":"focus","trial":0,"time":0},{"event":"fullscreenenter","trial":1,"time":3257},{"event":"fullscreenexit","trial":26,"time":28431}],"trial_tag":"interaction"},{"completedTask":"RLWM_expNOW","basename":"expNOW_unknownunknown","starting_time":"2023-11-21T09:09:12.448Z"}]