[{"rt":880,"stimulus":"<p>Hello unknown</p>","response":0,"trial_type":"html-button-response","trial_index":0,"time_elapsed":881,"internal_node_id":"0.0-0.0"},{"success":true,"rt":640,"trial_type":"fullscreen","trial_index":1,"time_elapsed":2530,"internal_node_id":"0.0-1.0"},{"rt":1190,"stimulus":"You are going to start a new block with images of fruits","response":0,"trial_type":"html-button-response","trial_index":2,"time_elapsed":3721,"internal_node_id":"0.0-2.0-0.0"},{"rt":null,"stimulus":"<p style='font-size: 3rem;'>+</p>","response":null,"trial_type":"html-keyboard-response","trial_index":3,"time_elapsed":4236,"internal_node_id":"0.0-2.0-1.0-0.0"},{"rt":null,"stimulus":"./img/fruits/kiwi.jpg","response":null,"trial_type":"image-button-response","trial_index":4,"time_elapsed":7270,"internal_node_id":"0.0-2.0-1.0-1.0","accuracy":-1},{"rt":null,"stimulus":"img/missedFb.png","response":null,"trial_type":"image-keyboard-response","trial_index":5,"time_elapsed":7783,"internal_node_id":"0.0-2.0-1.0-2.0"},{"rt":null,"stimulus":"<p style='font-size: 3rem;'>+</p>","response":null,"trial_type":"html-keyboard-response","trial_index":6,"time_elapsed":8294,"internal_node_id":"0.0-2.0-1.1-0.1"},{"rt":1299,"stimulus":"./img/fruits/pineapple.jpg","response":1,"trial_type":"image-button-response","trial_index":7,"time_elapsed":9593,"internal_node_id":"0.0-2.0-1.1-1.1","accuracy":1},{"rt":null,"stimulus":"img/thumbsUp.png","response":null,"trial_type":"image-keyboard-response","trial_index":8,"time_elapsed":10110,"internal_node_id":"0.0-2.0-1.1-2.1"},{"rt":28522,"stimulus":"You are going to start a new block with images of vegetables","response":0,"trial_type":"html-button-response","trial_index":9,"time_elapsed":38633,"internal_node_id":"0.0-2.1-0.1"},{"rt":null,"stimulus":"<p style='font-size: 3rem;'>+</p>","response":null,"trial_type":"html-keyboard-response","trial_index":10,"time_elapsed":39154,"internal_node_id":"0.0-2.1-1.2-0.2"},{"rt":1317,"stimulus":"./img/vegetables/carrot.jpg","response":0,"trial_type":"image-button-response","trial_index":11,"time_elapsed":40473,"internal_node_id":"0.0-2.1-1.2-1.2","accuracy":1},{"rt":null,"stimulus":"img/thumbsUp.png","response":null,"trial_type":"image-keyboard-response","trial_index":12,"time_elapsed":41019,"internal_node_id":"0.0-2.1-1.2-2.2"},{"rt":4329,"response":{"Vegetables":2,"Fruit":2,"Meat":2},"question_order":[0,1,2],"trial_type":"survey-likert","trial_index":13,"time_elapsed":45350,"internal_node_id":"0.0-3.0"},{"rt":867,"stimulus":"<p>Thanks for participating</p>","response":0,"trial_type":"html-button-response","trial_index":14,"time_elapsed":46216,"internal_node_id":"0.0-4.0"},{"rt":3960,"response":{"Fruit":2,"Meat":2,"Vegetables":2},"question_order":[1,2,0],"trial_type":"survey-likert","trial_index":15,"time_elapsed":50178,"internal_node_id":"0.0-5.0"},{"success":true,"rt":null,"trial_type":"fullscreen","trial_index":16,"time_elapsed":51183,"internal_node_id":"0.0-6.0"},{"trials":[{"event":"fullscreenenter","trial":1,"time":1731},{"event":"blur","trial":9,"time":13960},{"event":"focus","trial":9,"time":38548},{"event":"fullscreenexit","trial":16,"time":50397}],"trial_tag":"interaction"},{"completedTask":"RLWM_expNOW","basename":"expNOW_unknownunknown","starting_time":"2023-11-21T08:51:35.504Z"}]