[{"rt":39643,"stimulus":"<p>Hello unknown. You are slow.</p><p>In this short experiment, you will have to learn to associate specific images with specific response buttons, by trial and error.<br>The experiment is divived in blocks that correspond to different categories of images.</p>","response":0,"trial_type":"html-button-response","trial_index":0,"time_elapsed":39644,"internal_node_id":"0.0-0.0"},{"success":true,"timeout":false,"failed_images":[],"failed_audio":[],"failed_video":[],"trial_type":"preload","trial_index":1,"time_elapsed":39892,"internal_node_id":"0.0-1.0"},{"success":true,"rt":5253,"trial_type":"fullscreen","trial_index":2,"time_elapsed":46150,"internal_node_id":"0.0-2.0"},{"rt":1320,"stimulus":"You are going to start a new block with images of vegetables","response":0,"trial_type":"html-button-response","trial_index":3,"time_elapsed":47471,"internal_node_id":"0.0-3.0-0.0"},{"rt":null,"stimulus":"<p style='font-size: 3rem;'>+</p>","response":null,"trial_type":"html-keyboard-response","trial_index":4,"time_elapsed":47978,"internal_node_id":"0.0-3.0-1.0-0.0"},{"rt":1249,"stimulus":"./img/vegetables/eggplant.jpg","response":1,"trial_type":"image-button-response","trial_index":5,"time_elapsed":49232,"internal_node_id":"0.0-3.0-1.0-1.0","accuracy":0},{"rt":null,"stimulus":"img/thumbsDown.png","response":null,"trial_type":"image-keyboard-response","trial_index":6,"time_elapsed":49739,"internal_node_id":"0.0-3.0-1.0-2.0"},{"rt":1784,"stimulus":"You are going to start a new block with images of fruits","response":0,"trial_type":"html-button-response","trial_index":7,"time_elapsed":51524,"internal_node_id":"0.0-3.1-0.1"},{"rt":null,"stimulus":"<p style='font-size: 3rem;'>+</p>","response":null,"trial_type":"html-keyboard-response","trial_index":8,"time_elapsed":52034,"internal_node_id":"0.0-3.1-1.1-0.1"},{"rt":1253,"stimulus":"./img/fruits/kiwi.jpg","response":0,"trial_type":"image-button-response","trial_index":9,"time_elapsed":53290,"internal_node_id":"0.0-3.1-1.1-1.1","accuracy":1},{"rt":null,"stimulus":"img/thumbsUp.png","response":null,"trial_type":"image-keyboard-response","trial_index":10,"time_elapsed":53797,"internal_node_id":"0.0-3.1-1.1-2.1"},{"rt":null,"stimulus":"<p style='font-size: 3rem;'>+</p>","response":null,"trial_type":"html-keyboard-response","trial_index":11,"time_elapsed":54303,"internal_node_id":"0.0-3.1-1.2-0.2"},{"rt":989,"stimulus":"./img/fruits/blueberry.jpg","response":1,"trial_type":"image-button-response","trial_index":12,"time_elapsed":55294,"internal_node_id":"0.0-3.1-1.2-1.2","accuracy":1},{"rt":null,"stimulus":"img/thumbsUp.png","response":null,"trial_type":"image-keyboard-response","trial_index":13,"time_elapsed":55804,"internal_node_id":"0.0-3.1-1.2-2.2"},{"rt":1287,"stimulus":"You are going to start a new block with images of desserts","response":0,"trial_type":"html-button-response","trial_index":14,"time_elapsed":57092,"internal_node_id":"0.0-3.2-0.2"},{"rt":null,"stimulus":"<p style='font-size: 3rem;'>+</p>","response":null,"trial_type":"html-keyboard-response","trial_index":15,"time_elapsed":57605,"internal_node_id":"0.0-3.2-1.3-0.3"},{"rt":1145,"stimulus":"./img/desserts/milkshake.jpg","response":2,"trial_type":"image-button-response","trial_index":16,"time_elapsed":58754,"internal_node_id":"0.0-3.2-1.3-1.3","accuracy":0},{"rt":null,"stimulus":"img/thumbsDown.png","response":null,"trial_type":"image-keyboard-response","trial_index":17,"time_elapsed":59265,"internal_node_id":"0.0-3.2-1.3-2.3"},{"rt":null,"stimulus":"<p style='font-size: 3rem;'>+</p>","response":null,"trial_type":"html-keyboard-response","trial_index":18,"time_elapsed":59824,"internal_node_id":"0.0-3.2-1.4-0.4"},{"rt":1047,"stimulus":"./img/desserts/donut.jpg","response":1,"trial_type":"image-button-response","trial_index":19,"time_elapsed":60874,"internal_node_id":"0.0-3.2-1.4-1.4","accuracy":0},{"rt":null,"stimulus":"img/thumbsDown.png","response":null,"trial_type":"image-keyboard-response","trial_index":20,"time_elapsed":61384,"internal_node_id":"0.0-3.2-1.4-2.4"},{"rt":null,"stimulus":"<p style='font-size: 3rem;'>+</p>","response":null,"trial_type":"html-keyboard-response","trial_index":21,"time_elapsed":61893,"internal_node_id":"0.0-3.2-1.5-0.5"},{"rt":1035,"stimulus":"./img/desserts/ice-cream_cone.jpg","response":0,"trial_type":"image-button-response","trial_index":22,"time_elapsed":62932,"internal_node_id":"0.0-3.2-1.5-1.5","accuracy":0},{"rt":null,"stimulus":"img/thumbsDown.png","response":null,"trial_type":"image-keyboard-response","trial_index":23,"time_elapsed":63442,"internal_node_id":"0.0-3.2-1.5-2.5"},{"rt":1270,"stimulus":"<p>Thanks for participating</p>","response":0,"trial_type":"html-button-response","trial_index":24,"time_elapsed":64713,"internal_node_id":"0.0-4.0"},{"rt":1977,"response":{"Vegetables":"","Fruit":"","Meat":""},"question_order":[0,1,2],"trial_type":"survey-likert","trial_index":25,"time_elapsed":66693,"internal_node_id":"0.0-5.0"},{"success":true,"rt":null,"trial_type":"fullscreen","trial_index":26,"time_elapsed":67701,"internal_node_id":"0.0-6.0"},{"trials":[{"event":"blur","trial":0,"time":6419},{"event":"focus","trial":0,"time":39422},{"event":"fullscreenenter","trial":2,"time":45365},{"event":"fullscreenexit","trial":26,"time":66916}],"trial_tag":"interaction"},{"completedTask":"RLWM_expNOW","basename":"expNOW_unknownunknown","starting_time":"2023-11-23T14:46:19.435Z"}]